mouse.x,mouse.y,mouse.leftButton,mouse.midButton,mouse.rightButton,mouse.clicked_name,participant,session,date,expName,psychopyVersion,OS,frameRate,study_id,mouse_2.x,mouse_2.y,mouse_2.leftButton,mouse_2.midButton,mouse_2.rightButton,mouse_2.clicked_name,mouse_8.x,mouse_8.y,mouse_8.leftButton,mouse_8.midButton,mouse_8.rightButton,mouse_8.clicked_name,refresh_rate,mouse_10.x,mouse_10.y,mouse_10.leftButton,mouse_10.midButton,mouse_10.rightButton,mouse_10.clicked_name,slider1_2.response,slider1_2.rt,mouse_11.x,mouse_11.y,mouse_11.leftButton,mouse_11.midButton,mouse_11.rightButton,mouse_11.clicked_name,slider2_2.response,slider2_2.rt,mouse_12.x,mouse_12.y,mouse_12.leftButton,mouse_12.midButton,mouse_12.rightButton,mouse_12.clicked_name,slider3_2.response,slider3_2.rt,mouse_13.x,mouse_13.y,mouse_13.leftButton,mouse_13.midButton,mouse_13.rightButton,mouse_13.clicked_name,slider4_2.response,slider4_2.rt,mouse_14.x,mouse_14.y,mouse_14.leftButton,mouse_14.midButton,mouse_14.rightButton,mouse_14.clicked_name,slider5_2.response,slider5_2.rt,mouse_15.x,mouse_15.y,mouse_15.leftButton,mouse_15.midButton,mouse_15.rightButton,mouse_15.clicked_name,mouse_16.x,mouse_16.y,mouse_16.leftButton,mouse_16.midButton,mouse_16.rightButton,mouse_16.clicked_name,word1,rating1,slider1.response,slider1.rt,mouse_3.x,mouse_3.y,mouse_3.leftButton,mouse_3.midButton,mouse_3.rightButton,mouse_3.clicked_name,word2,rating2,slider2.response,slider2.rt,mouse_4.x,mouse_4.y,mouse_4.leftButton,mouse_4.midButton,mouse_4.rightButton,mouse_4.clicked_name,word3,rating3,slider3.response,slider3.rt,mouse_5.x,mouse_5.y,mouse_5.leftButton,mouse_5.midButton,mouse_5.rightButton,mouse_5.clicked_name,word4,rating4,slider4.response,slider4.rt,mouse_6.x,mouse_6.y,mouse_6.leftButton,mouse_6.midButton,mouse_6.rightButton,mouse_6.clicked_name,word5,rating5,slider5.response,slider5.rt,mouse_7.x,mouse_7.y,mouse_7.leftButton,mouse_7.midButton,mouse_7.rightButton,mouse_7.clicked_name,trials.thisRepN,trials.thisTrialN,trials.thisN,trials.thisIndex,trials.ran,video_file,video_id,mouse_9.x,mouse_9.y,mouse_9.leftButton,mouse_9.midButton,mouse_9.rightButton,mouse_9.clicked_name
0.006076431,-0.394444466,1,0,0,image,5c317f9c70d93a00012308fe,63c4aacbe9cb9ad555432dc4,2023-01-16_12h43.48.598,manan_vfe_color,2022.2.4,Win32,59.94844434,63bf5a138a8611bc9094296c,,,,,,,,,,,,,,,,,,,,,,,,,,,,,,,,,,,,,,,,,,,,,,,,,,,,,,,,,,,,,,,,,,,,,,,,,,,,,,,,,,,,,,,,,,,,,,,,,,,,,,,,,,,,,,,,,,,,,,,,,,,,,,,,
,,,,,,5c317f9c70d93a00012308fe,63c4aacbe9cb9ad555432dc4,2023-01-16_12h43.48.598,manan_vfe_color,2022.2.4,Win32,59.94844434,63bf5a138a8611bc9094296c,0.033854167,-0.413194466,1,0,0,image,,,,,,,,,,,,,,,,,,,,,,,,,,,,,,,,,,,,,,,,,,,,,,,,,,,,,,,,,,,,,,,,,,,,,,,,,,,,,,,,,,,,,,,,,,,,,,,,,,,,,,,,,,,,,,,,,,,,,,,,,,
,,,,,,5c317f9c70d93a00012308fe,63c4aacbe9cb9ad555432dc4,2023-01-16_12h43.48.598,manan_vfe_color,2022.2.4,Win32,59.94844434,63bf5a138a8611bc9094296c,,,,,,,0.0296875,-0.409722265,1,0,0,image,60.12144532,,,,,,,,,,,,,,,,,,,,,,,,,,,,,,,,,,,,,,,,,,,,,,,,,,,,,,,,,,,,,,,,,,,,,,,,,,,,,,,,,,,,,,,,,,,,,,,,,,,,,,,,,,,,,,,,,,,
,,,,,,5c317f9c70d93a00012308fe,63c4aacbe9cb9ad555432dc4,2023-01-16_12h43.48.598,manan_vfe_color,2022.2.4,Win32,59.94844434,63bf5a138a8611bc9094296c,,,,,,,,,,,,,,0.028298632,-0.402777799,1,0,0,image,,,,,,,,,,,,,,,,,,,,,,,,,,,,,,,,,,,,,,,,,,,,,,,,,,,,,,,,,,,,,,,,,,,,,,,,,,,,,,,,,,,,,,,,,,,,,,,,,,,,,,,,,,,,,
,,,,,,5c317f9c70d93a00012308fe,63c4aacbe9cb9ad555432dc4,2023-01-16_12h43.48.598,manan_vfe_color,2022.2.4,Win32,59.94844434,63bf5a138a8611bc9094296c,,,,,,,,,,,,,,,,,,,,,,,,,,,,,,,,,,,,,,,,,,,,,,,,,,,,,,,,,,,,,,,,,,,,,,,,,,,,,,,,,,,,,,,,,,,,,,,,,,,,,,,,,,,,,,,,,,,,,,,,,,,,,,,,
,,,,,,5c317f9c70d93a00012308fe,63c4aacbe9cb9ad555432dc4,2023-01-16_12h43.48.598,manan_vfe_color,2022.2.4,Win32,59.94844434,63bf5a138a8611bc9094296c,,,,,,,,,,,,,,,,,,,,,,,,,,,,,,,,,,,,,,,,,,,,,,,,,,,,,,,,,,,,,,,,,,,,,,,,,,,,,,,,,,,,,,,,,,,,,,,,,,,,,,,,,,,,,,,,,,,,,,,,,,,,,,,,
,,,,,,5c317f9c70d93a00012308fe,63c4aacbe9cb9ad555432dc4,2023-01-16_12h43.48.598,manan_vfe_color,2022.2.4,Win32,59.94844434,63bf5a138a8611bc9094296c,,,,,,,,,,,,,,,,,,,,4,7.5194,0.042881966,-0.417361132,1,0,0,image,,,,,,,,,,,,,,,,,,,,,,,,,,,,,,,,,,,,,,,,,,,,,,,,,,,,,,,,,,,,,,,,,,,,,,,,,,,,,,,,,,,,,,,,,,,,,,,,,,,,,
,,,,,,5c317f9c70d93a00012308fe,63c4aacbe9cb9ad555432dc4,2023-01-16_12h43.48.598,manan_vfe_color,2022.2.4,Win32,59.94844434,63bf5a138a8611bc9094296c,,,,,,,,,,,,,,,,,,,,,,,,,,,,3,4.0242,0.022743098,-0.364583333,1,0,0,image,,,,,,,,,,,,,,,,,,,,,,,,,,,,,,,,,,,,,,,,,,,,,,,,,,,,,,,,,,,,,,,,,,,,,,,,,,,,,,,,,,,,,,,,,,,,,
,,,,,,5c317f9c70d93a00012308fe,63c4aacbe9cb9ad555432dc4,2023-01-16_12h43.48.598,manan_vfe_color,2022.2.4,Win32,59.94844434,63bf5a138a8611bc9094296c,,,,,,,,,,,,,,,,,,,,,,,,,,,,,,,,,,,,4,2.6867,0.028298632,-0.365277799,1,0,0,image,,,,,,,,,,,,,,,,,,,,,,,,,,,,,,,,,,,,,,,,,,,,,,,,,,,,,,,,,,,,,,,,,,,,,,,,,,,,,,,,,,,,,
,,,,,,5c317f9c70d93a00012308fe,63c4aacbe9cb9ad555432dc4,2023-01-16_12h43.48.598,manan_vfe_color,2022.2.4,Win32,59.94844434,63bf5a138a8611bc9094296c,,,,,,,,,,,,,,,,,,,,,,,,,,,,,,,,,,,,,,,,,,,,4,3.0576,0.043576431,-0.352083333,1,0,0,image,,,,,,,,,,,,,,,,,,,,,,,,,,,,,,,,,,,,,,,,,,,,,,,,,,,,,,,,,,,,,,,,,,,,,,,,,,,,,
,,,,,,5c317f9c70d93a00012308fe,63c4aacbe9cb9ad555432dc4,2023-01-16_12h43.48.598,manan_vfe_color,2022.2.4,Win32,59.94844434,63bf5a138a8611bc9094296c,,,,,,,,,,,,,,,,,,,,,,,,,,,,,,,,,,,,,,,,,,,,,,,,,,,,4,5.9877,0.072743098,-0.385416667,1,0,0,image,,,,,,,,,,,,,,,,,,,,,,,,,,,,,,,,,,,,,,,,,,,,,,,,,,,,,,,,,,,,,,,,,,,,,
,,,,,,5c317f9c70d93a00012308fe,63c4aacbe9cb9ad555432dc4,2023-01-16_12h43.48.598,manan_vfe_color,2022.2.4,Win32,59.94844434,63bf5a138a8611bc9094296c,,,,,,,,,,,,,,,,,,,,,,,,,,,,,,,,,,,,,,,,,,,,,,,,,,,,,,,,,,,,0.0484375,-0.415277799,1,0,0,image,,,,,,,,,,,,,,,,,,,,,,,,,,,,,,,,,,,,,,,,,,,,,,,,,,,,,,,,,,,,,,,
,,,,,,5c317f9c70d93a00012308fe,63c4aacbe9cb9ad555432dc4,2023-01-16_12h43.48.598,manan_vfe_color,2022.2.4,Win32,59.94844434,63bf5a138a8611bc9094296c,,,,,,,,,,,,,,,,,,,,,,,,,,,,,,,,,,,,,,,,,,,,,,,,,,,,,,,,,,,,,,,,,,fascinated,4,4,3.9828,0.0734375,-0.361111132,1,0,0,image,intrigued,4,4,12.767,0.060243098,-0.381944466,1,0,0,image,hungry,3,3,12.222,0.033854167,-0.425694466,1,0,0,image,calm,5,5,9.6601,0.016493098,-0.375694466,1,0,0,image,happy,4,4,23.0904,0.0359375,-0.386111132,1,0,0,image,0,0,0,0,1,group_1/1826.mp4,1,,,,,,
,,,,,,5c317f9c70d93a00012308fe,63c4aacbe9cb9ad555432dc4,2023-01-16_12h43.48.598,manan_vfe_color,2022.2.4,Win32,59.94844434,63bf5a138a8611bc9094296c,,,,,,,,,,,,,,,,,,,,,,,,,,,,,,,,,,,,,,,,,,,,,,,,,,,,,,,,,,,,,,,,,,neutral,5,5,9.1729,-0.021701368,-0.377777799,1,0,0,image,intrigued,5,5,3.3329,0.064409765,-0.402083333,1,0,0,image,disgust,5,5,3.0252,0.056076431,-0.4,1,0,0,image,distracted,4,4,12.4481,0.044965299,-0.403472265,1,0,0,image,angry,2,2,20.7161,0.017881966,-0.4375,1,0,0,image,0,1,1,1,1,group_1/1693.mp4,2,,,,,,
,,,,,,5c317f9c70d93a00012308fe,63c4aacbe9cb9ad555432dc4,2023-01-16_12h43.48.598,manan_vfe_color,2022.2.4,Win32,59.94844434,63bf5a138a8611bc9094296c,,,,,,,,,,,,,,,,,,,,,,,,,,,,,,,,,,,,,,,,,,,,,,,,,,,,,,,,,,,,,,,,,,disgusted,5,5,4.3713,0.052604167,-0.384722265,1,0,0,image,angry,5,5,1.8659,0.076909765,-0.382638931,1,0,0,image,upset,5,5,3.185,0.053298632,-0.415972265,1,0,0,image,dismayed,5,5,4.7187,0.0921875,-0.390277799,1,0,0,image,appalled,5,5,10.83,0.0109375,-0.41875,1,0,0,image,0,2,2,2,1,group_1/1703.mp4,3,,,,,,
,,,,,,5c317f9c70d93a00012308fe,63c4aacbe9cb9ad555432dc4,2023-01-16_12h43.48.598,manan_vfe_color,2022.2.4,Win32,59.94844434,63bf5a138a8611bc9094296c,,,,,,,,,,,,,,,,,,,,,,,,,,,,,,,,,,,,,,,,,,,,,,,,,,,,,,,,,,,,,,,,,,happy,4,4,6.6068,0.0484375,-0.390972265,1,0,0,image,perplexed,5,5,3.0386,-0.036979167,-0.405555598,1,0,0,image,wondering,4,4,2.1397,0.053993098,-0.417361132,1,0,0,image,relieved,4,4,4.958,0.031770833,-0.376388931,1,0,0,image,cold,4,4,5.525,0.003298632,-0.392361132,1,0,0,image,0,3,3,3,1,group_1/0570.mp4,4,,,,,,
,,,,,,5c317f9c70d93a00012308fe,63c4aacbe9cb9ad555432dc4,2023-01-16_12h43.48.598,manan_vfe_color,2022.2.4,Win32,59.94844434,63bf5a138a8611bc9094296c,,,,,,,,,,,,,,,,,,,,,,,,,,,,,,,,,,,,,,,,,,,,,,,,,,,,,,,,,,,,,,,,,,neutral,4,4,5.4848,0.074826431,-0.372916667,1,0,0,image,repulsed,4,4,5.9952,0.030381966,-0.372222265,1,0,0,image,uncaring,4,4,3.8595,0.045659765,-0.396527799,1,0,0,image,avoidant,5,5,12.5649,-0.039756902,-0.397916667,1,0,0,image,head-shaking,4,4,7.2279,0.053993098,-0.372222265,1,0,0,image,0,4,4,4,1,group_1/0187.mp4,5,,,,,,
,,,,,,5c317f9c70d93a00012308fe,63c4aacbe9cb9ad555432dc4,2023-01-16_12h43.48.598,manan_vfe_color,2022.2.4,Win32,59.94844434,63bf5a138a8611bc9094296c,,,,,,,,,,,,,,,,,,,,,,,,,,,,,,,,,,,,,,,,,,,,,,,,,,,,,,,,,,,,,,,,,,bored,4,4,4.6085,-0.0078125,-0.391666667,1,0,0,image,distracted,5,5,3.8886,-0.012673569,-0.436805598,1,0,0,image,tired,4,4,4.1413,0.045659765,-0.367361132,1,0,0,image,neutral,4,4,4.4527,0.008854167,-0.414583333,1,0,0,image,calm,4,4,7.961,-0.071006902,-0.429166667,1,0,0,image,0,5,5,5,1,group_1/1210.mp4,6,,,,,,
,,,,,,5c317f9c70d93a00012308fe,63c4aacbe9cb9ad555432dc4,2023-01-16_12h43.48.598,manan_vfe_color,2022.2.4,Win32,59.94844434,63bf5a138a8611bc9094296c,,,,,,,,,,,,,,,,,,,,,,,,,,,,,,,,,,,,,,,,,,,,,,,,,,,,,,,,,,,,,,,,,,happiness,4,4,4.6134,0.028993098,-0.376388931,1,0,0,image,relief,4,4,3.8943,0.003993098,-0.388888931,1,0,0,image,calm,5,5,8.8181,-0.016145833,-0.390972265,1,0,0,image,sad,4,4,19.8373,0.036631966,-0.363888931,1,0,0,image,wondering,4,4,10.9584,0.0796875,-0.386805598,1,0,0,image,0,6,6,6,1,group_1/1169.mp4,7,,,,,,
,,,,,,5c317f9c70d93a00012308fe,63c4aacbe9cb9ad555432dc4,2023-01-16_12h43.48.598,manan_vfe_color,2022.2.4,Win32,59.94844434,63bf5a138a8611bc9094296c,,,,,,,,,,,,,,,,,,,,,,,,,,,,,,,,,,,,,,,,,,,,,,,,,,,,,,,,,,,,,,,,,,bored,5,5,4.905,0.015104167,-0.406944466,1,0,0,image,yawning,5,5,3.0018,-0.105034701,-0.460416667,1,0,0,image,tired,5,5,2.6881,0.034548632,-0.427083333,1,0,0,image,uninterested,5,5,2.4231,0.085243098,-0.390972265,1,0,0,image,upset,5,5,2.8582,-0.030034701,-0.411111132,1,0,0,image,0,7,7,7,1,group_1/1567.mp4,8,,,,,,
,,,,,,5c317f9c70d93a00012308fe,63c4aacbe9cb9ad555432dc4,2023-01-16_12h43.48.598,manan_vfe_color,2022.2.4,Win32,59.94844434,63bf5a138a8611bc9094296c,,,,,,,,,,,,,,,,,,,,,,,,,,,,,,,,,,,,,,,,,,,,,,,,,,,,,,,,,,,,,,,,,,cringe,5,5,2.1766,0.065104167,-0.382638931,1,0,0,image,amused,5,5,13.8271,0.043576431,-0.405555598,1,0,0,image,shrivel,5,5,6.4922,0.049131966,-0.375694466,1,0,0,image,happy,5,5,6.687,-0.0703125,-0.405555598,1,0,0,image,laughter,4,4,3.831,0.051215299,-0.397916667,1,0,0,image,0,8,8,8,1,group_1/1768.mp4,9,,,,,,
,,,,,,5c317f9c70d93a00012308fe,63c4aacbe9cb9ad555432dc4,2023-01-16_12h43.48.598,manan_vfe_color,2022.2.4,Win32,59.94844434,63bf5a138a8611bc9094296c,,,,,,,,,,,,,,,,,,,,,,,,,,,,,,,,,,,,,,,,,,,,,,,,,,,,,,,,,,,,,,,,,,bored,4,4,7.7419,0.007465299,-0.368055598,1,0,0,image,tired,5,5,1.9825,-0.0390625,-0.382638931,1,0,0,image,uninterested,5,5,2.3398,0.082465299,-0.421527799,1,0,0,image,distracted,5,5,4.5272,0.041493098,-0.374305598,1,0,0,image,unapolagetic,5,5,11.4791,0.060243098,-0.379861132,1,0,0,image,0,9,9,9,1,group_1/1791.mp4,10,,,,,,
,,,,,,5c317f9c70d93a00012308fe,63c4aacbe9cb9ad555432dc4,2023-01-16_12h43.48.598,manan_vfe_color,2022.2.4,Win32,59.94844434,63bf5a138a8611bc9094296c,,,,,,,,,,,,,,,,,,,,,,,,,,,,,,,,,,,,,,,,,,,,,,,,,,,,,,,,,,,,,,,,,,head-shaking,5,5,4.2637,-0.023090235,-0.40625,1,0,0,image,annoyed,5,5,1.8824,-0.023090235,-0.338888931,1,0,0,image,angry,5,5,4.107,0.034548632,-0.41875,1,0,0,image,avoidant,4,4,7.3514,0.068576431,-0.375694466,1,0,0,image,upset,3,3,3.6119,0.049826431,-0.414583333,1,0,0,image,0,10,10,10,1,group_1/2120.mp4,11,,,,,,
,,,,,,5c317f9c70d93a00012308fe,63c4aacbe9cb9ad555432dc4,2023-01-16_12h43.48.598,manan_vfe_color,2022.2.4,Win32,59.94844434,63bf5a138a8611bc9094296c,,,,,,,,,,,,,,,,,,,,,,,,,,,,,,,,,,,,,,,,,,,,,,,,,,,,,,,,,,,,,,,,,,annoyed,5,5,3.6408,0.040798632,-0.359722265,1,0,0,image,joyous,5,5,5.4527,0.0671875,-0.425,1,0,0,image,head-shaking,4,4,4.6773,0.028298632,-0.404166667,1,0,0,image,relieved,5,5,4.407,0.056770833,-0.390277799,1,0,0,image,laughter,4,4,4.9395,0.040104167,-0.381944466,1,0,0,image,0,11,11,11,1,group_1/2090.mp4,12,,,,,,
,,,,,,5c317f9c70d93a00012308fe,63c4aacbe9cb9ad555432dc4,2023-01-16_12h43.48.598,manan_vfe_color,2022.2.4,Win32,59.94844434,63bf5a138a8611bc9094296c,,,,,,,,,,,,,,,,,,,,,,,,,,,,,,,,,,,,,,,,,,,,,,,,,,,,,,,,,,,,,,,,,,disgust,5,5,4.1259,0.019965299,-0.390277799,1,0,0,image,avoidant,5,5,3.1159,0.038715299,-0.398611132,1,0,0,image,annoyed,5,5,3.0951,0.040104167,-0.36875,1,0,0,image,bored,5,5,1.5768,0.081770833,-0.36875,1,0,0,image,uninterested,4,4,2.5186,0.051909765,-0.395833333,1,0,0,image,0,12,12,12,1,group_1/0523.mp4,13,,,,,,
,,,,,,5c317f9c70d93a00012308fe,63c4aacbe9cb9ad555432dc4,2023-01-16_12h43.48.598,manan_vfe_color,2022.2.4,Win32,59.94844434,63bf5a138a8611bc9094296c,,,,,,,,,,,,,,,,,,,,,,,,,,,,,,,,,,,,,,,,,,,,,,,,,,,,,,,,,,,,,,,,,,tense,5,5,3.161,0.070659765,-0.384027799,1,0,0,image,amazed,5,5,1.9267,0.063715299,-0.380555598,1,0,0,image,bewildered,5,5,2.9253,0.043576431,-0.4,1,0,0,image,interested,4,4,7.8528,0.058854167,-0.386805598,1,0,0,image,afraid,3,3,3.881,0.033159765,-0.372222265,1,0,0,image,0,13,13,13,1,group_1/1037.mp4,14,,,,,,
,,,,,,5c317f9c70d93a00012308fe,63c4aacbe9cb9ad555432dc4,2023-01-16_12h43.48.598,manan_vfe_color,2022.2.4,Win32,59.94844434,63bf5a138a8611bc9094296c,,,,,,,,,,,,,,,,,,,,,,,,,,,,,,,,,,,,,,,,,,,,,,,,,,,,,,,,,,,,,,,,,,intrigued,5,5,5.2389,0.020659765,-0.381944466,1,0,0,image,perplexed,5,5,5.2567,0.019270833,-0.414583333,1,0,0,image,intrigue,4,4,6.3638,0.038715299,-0.3625,1,0,0,image,fascination,3,3,2.4941,0.049826431,-0.422916667,1,0,0,image,approachable,4,4,8.636,-0.009201368,-0.370833333,1,0,0,image,0,14,14,14,1,group_1/0510.mp4,15,,,,,,
,,,,,,5c317f9c70d93a00012308fe,63c4aacbe9cb9ad555432dc4,2023-01-16_12h43.48.598,manan_vfe_color,2022.2.4,Win32,59.94844434,63bf5a138a8611bc9094296c,,,,,,,,,,,,,,,,,,,,,,,,,,,,,,,,,,,,,,,,,,,,,,,,,,,,,,,,,,,,,,,,,,uncaring,5,5,3.1787,0.025520833,-0.385416667,1,0,0,image,neutral,5,5,5.3471,0.056076431,-0.391666667,1,0,0,image,bemused,5,5,1.6309,-0.004340235,-0.411111132,1,0,0,image,happy,5,5,3.2383,0.0671875,-0.368055598,1,0,0,image,bored,5,5,4.273,0.038020833,-0.388194466,1,0,0,image,0,15,15,15,1,group_1/0208.mp4,16,,,,,,
,,,,,,5c317f9c70d93a00012308fe,63c4aacbe9cb9ad555432dc4,2023-01-16_12h43.48.598,manan_vfe_color,2022.2.4,Win32,59.94844434,63bf5a138a8611bc9094296c,,,,,,,,,,,,,,,,,,,,,,,,,,,,,,,,,,,,,,,,,,,,,,,,,,,,,,,,,,,,,,,,,,neutral,5,5,2.9521,0.013020833,-0.432638931,1,0,0,image,bored,5,5,1.8251,-0.023090235,-0.379166667,1,0,0,image,uninterested,4,4,2.4619,0.0546875,-0.390277799,1,0,0,image,wondering,3,3,8.0282,0.037326431,-0.376388931,1,0,0,image,happiness,2,2,4.1094,0.021354167,-0.438194466,1,0,0,image,0,16,16,16,1,group_1/0927.mp4,17,,,,,,
,,,,,,5c317f9c70d93a00012308fe,63c4aacbe9cb9ad555432dc4,2023-01-16_12h43.48.598,manan_vfe_color,2022.2.4,Win32,59.94844434,63bf5a138a8611bc9094296c,,,,,,,,,,,,,,,,,,,,,,,,,,,,,,,,,,,,,,,,,,,,,,,,,,,,,,,,,,,,,,,,,,disgust,5,5,2.4388,0.049131966,-0.388888931,1,0,0,image,repulsion,5,5,3.3849,0.025520833,-0.372916667,1,0,0,image,bored,5,5,2.6437,-0.011979167,-0.402777799,1,0,0,image,avoidant,5,5,2.1482,0.024826431,-0.389583333,1,0,0,image,head-shaking,5,5,5.7967,0.088715299,-0.390277799,1,0,0,image,0,17,17,17,1,group_1/1610.mp4,18,,,,,,
,,,,,,5c317f9c70d93a00012308fe,63c4aacbe9cb9ad555432dc4,2023-01-16_12h43.48.598,manan_vfe_color,2022.2.4,Win32,59.94844434,63bf5a138a8611bc9094296c,,,,,,,,,,,,,,,,,,,,,,,,,,,,,,,,,,,,,,,,,,,,,,,,,,,,,,,,,,,,,,,,,,tense,4,4,7.6795,0.047048632,-0.366666667,1,0,0,image,fixated,5,5,3.4397,-0.025173569,-0.355555598,1,0,0,image,cringe,4,4,2.3957,0.058159765,-0.357638931,1,0,0,image,head-shaking,5,5,4.8286,0.090798632,-0.394444466,1,0,0,image,annoyed,2,2,6.335,0.002604167,-0.377083333,1,0,0,image,0,18,18,18,1,group_1/0532.mp4,19,,,,,,
,,,,,,5c317f9c70d93a00012308fe,63c4aacbe9cb9ad555432dc4,2023-01-16_12h43.48.598,manan_vfe_color,2022.2.4,Win32,59.94844434,63bf5a138a8611bc9094296c,,,,,,,,,,,,,,,,,,,,,,,,,,,,,,,,,,,,,,,,,,,,,,,,,,,,,,,,,,,,,,,,,,bored,4,4,6.7493,0.053298632,-0.358333333,1,0,0,image,loud,5,5,3.5348,0.010243098,-0.375694466,1,0,0,image,noisy,5,5,7.129,0.037326431,-0.388194466,1,0,0,image,pollution,5,5,6.5599,0.049826431,-0.38125,1,0,0,image,disturbing,3,3,6.1998,-0.013368034,-0.411111132,1,0,0,image,0,19,19,19,1,group_1/1372.mp4,20,,,,,,
,,,,,,5c317f9c70d93a00012308fe,63c4aacbe9cb9ad555432dc4,2023-01-16_12h43.48.598,manan_vfe_color,2022.2.4,Win32,59.94844434,63bf5a138a8611bc9094296c,,,,,,,,,,,,,,,,,,,,,,,,,,,,,,,,,,,,,,,,,,,,,,,,,,,,,,,,,,,,,,,,,,uncaring,5,5,2.5877,-0.000173569,-0.376388931,1,0,0,image,afraid,5,5,2.9236,0.026909765,-0.368055598,1,0,0,image,disgusted,5,5,2.2589,0.005381966,-0.400694466,1,0,0,image,annoyed,4,4,2.7658,0.003993098,-0.377083333,1,0,0,image,dismayed,3,3,2.5711,0.0609375,-0.403472265,1,0,0,image,0,20,20,20,1,group_1/0059.mp4,21,,,,,,
,,,,,,5c317f9c70d93a00012308fe,63c4aacbe9cb9ad555432dc4,2023-01-16_12h43.48.598,manan_vfe_color,2022.2.4,Win32,59.94844434,63bf5a138a8611bc9094296c,,,,,,,,,,,,,,,,,,,,,,,,,,,,,,,,,,,,,,,,,,,,,,,,,,,,,,,,,,,,,,,,,,bored,5,5,2.9372,-0.046006902,-0.419444466,1,0,0,image,disinterested,5,5,2.3424,0.090104167,-0.418055598,1,0,0,image,sleepy,5,5,4.8683,0.025520833,-0.413888931,1,0,0,image,agony,5,5,5.9904,0.044965299,-0.359027799,1,0,0,image,avoidant,3,3,12.4686,0.030381966,-0.426388931,1,0,0,image,0,21,21,21,1,group_1/0540.mp4,22,,,,,,
,,,,,,5c317f9c70d93a00012308fe,63c4aacbe9cb9ad555432dc4,2023-01-16_12h43.48.598,manan_vfe_color,2022.2.4,Win32,59.94844434,63bf5a138a8611bc9094296c,,,,,,,,,,,,,,,,,,,,,,,,,,,,,,,,,,,,,,,,,,,,,,,,,,,,,,,,,,,,,,,,,,amazed,5,5,2.8895,0.069270833,-0.376388931,1,0,0,image,perplexed,5,5,4.6472,0.064409765,-0.363194466,1,0,0,image,entranced,5,5,2.917,0.088020833,-0.406944466,1,0,0,image,neutral,5,5,3.7885,0.022048632,-0.406944466,1,0,0,image,horrified,4,4,19.0853,0.040104167,-0.414583333,1,0,0,image,0,22,22,22,1,group_1/1292.mp4,23,,,,,,
,,,,,,5c317f9c70d93a00012308fe,63c4aacbe9cb9ad555432dc4,2023-01-16_12h43.48.598,manan_vfe_color,2022.2.4,Win32,59.94844434,63bf5a138a8611bc9094296c,,,,,,,,,,,,,,,,,,,,,,,,,,,,,,,,,,,,,,,,,,,,,,,,,,,,,,,,,,,,,,,,,,bored,5,5,2.375,0.047048632,-0.407638931,1,0,0,image,falling-asleep,5,5,12.1479,0.078993098,-0.391666667,1,0,0,image,dismayed,4,4,2.9569,0.027604167,-0.365972265,1,0,0,image,avoidant,5,5,1.8792,0.084548632,-0.384722265,1,0,0,image,drained,5,5,4.3699,0.0359375,-0.397916667,1,0,0,image,0,23,23,23,1,group_1/0088.mp4,24,,,,,,
,,,,,,5c317f9c70d93a00012308fe,63c4aacbe9cb9ad555432dc4,2023-01-16_12h43.48.598,manan_vfe_color,2022.2.4,Win32,59.94844434,63bf5a138a8611bc9094296c,,,,,,,,,,,,,,,,,,,,,,,,,,,,,,,,,,,,,,,,,,,,,,,,,,,,,,,,,,,,,,,,,,bored,5,5,2.4893,-0.032118034,-0.393055598,1,0,0,image,overplayed,5,5,5.1802,0.061631966,-0.369444466,1,0,0,image,backround-noise,5,5,7.0761,0.0671875,-0.375694466,1,0,0,image,upset,4,4,5.4415,0.058159765,-0.411805598,1,0,0,image,avoidant,5,5,2.579,-0.005034701,-0.411805598,1,0,0,image,0,24,24,24,1,group_1/1544.mp4,25,,,,,,
,,,,,,5c317f9c70d93a00012308fe,63c4aacbe9cb9ad555432dc4,2023-01-16_12h43.48.598,manan_vfe_color,2022.2.4,Win32,59.94844434,63bf5a138a8611bc9094296c,,,,,,,,,,,,,,,,,,,,,,,,,,,,,,,,,,,,,,,,,,,,,,,,,,,,,,,,,,,,,,,,,,,,,,,,,,,,,,,,,,,,,,,,,,,,,,,,,,,,,,,,,,,,,,,,,,,,,,,,,,,-0.004340235,-0.411111132,1,0,0,image
